Folder: Research/EDK/XPS/PR_Project_XADC/ring osc calibration runs

Note: EDK/XPS/PR_Project_XADC/ring osc calibration runs/all_run_1.txt
core temperature: 2489
temperature readings:
6F98EC (7313644), 7252B5 (7492277)
6C9229 (7115305), 6E08B5 (7211189)
6E4130 (7225648), 6D30D1 (7155921)
776156 (7823702), 74AC76 (7646326)
79A380 (7971712), 727216 (7500310)
79704B (7958603), 7452AB (7623339)
79DF32 (7986994), 7D4EA5 (8212133)
core temperature: 2497
temperature readings:
6F9716 (7313174), 725149 (7491913)
6C90DD (7114973), 6E07FF (7211007)
6E3FD6 (7225302), 6D2FF7 (7155703)
776174 (7823732), 74ABDF (7646175)
79A296 (7971478), 72709C (7499932)
796EDF (7958239), 7451AE (7623086)
79DE9D (7986845), 7D4E41 (8212033)
core temperature: 2505
temperature readings:
6F9844 (7313476), 7252B1 (7492273)
6C9261 (7115361), 6E094F (7211343)
6E40D8 (7225560), 6D3105 (7155973)
776518 (7824664), 74AEFD (7646973)
79A457 (7971927), 72717B (7500155)
796FF2 (7958514), 745263 (7623267)
79DFD2 (7987154), 7D4F62 (8212322)
core temperature: 2513
temperature readings:
6F9853 (7313491), 7252C4 (7492292)
6C927B (7115387), 6E0A42 (7211586)
6E3FDE (7225310), 6D30AE (7155886)
776554 (7824724), 74AEEE (7646958)
79A403 (7971843), 7270CF (7499983)
796F9D (7958429), 74524D (7623245)
79E00C (7987212), 7D4F38 (8212280)
core temperature: 2521
temperature readings:
6F956D (7312749), 725026 (7491622)
6C8FEE (7114734), 6E07B7 (7210935)
6E3D53 (7224659), 6D2E61 (7155297)
77645C (7824476), 74ACC0 (7646400)
79A158 (7971160), 726D83 (7499139)
796C21 (7957537), 744E04 (7622148)
79DE2E (7986734), 7D4CD8 (8211672)
core temperature: 2529
temperature readings:
6F9385 (7312261), 724E77 (7491191)
6C8EDD (7114461), 6E075E (7210846)
6E3B90 (7224208), 6D2CC3 (7154883)
7763C0 (7824320), 74AB79 (7646073)
799FBD (7970749), 726B5C (7498588)
7969ED (7956973), 744C27 (7621671)
79DC85 (7986309), 7D4B85 (8211333)
core temperature: 2537
temperature readings:
6F8FA0 (7311264), 724A84 (7490180)
6C8ADB (7113435), 6E039F (7209887)
6E375B (7223131), 6D28D2 (7153874)
77611A (7823642), 74A82F (7645231)
799A4A (7969354), 72664E (7497294)
796610 (7955984), 7447E0 (7620576)
79D844 (7985220), 7D46C0 (8210112)
core temperature: 2545
temperature readings:
6F8B5C (7310172), 72464F (7489103)
6C8714 (7112468), 6E001E (7208990)
6E3350 (7222096), 6D2548 (7152968)
775D91 (7822737), 74A47C (7644284)
7995C8 (7968200), 7260F3 (7495923)
7960EE (7954670), 74433D (7619389)
79D490 (7984272), 7D42FB (8209147)
core temperature: 2553
temperature readings:
6F872E (7309102), 72428A (7488138)
6C827E (7111294), 6DFC6C (7208044)
6E2E39 (7220793), 6D2148 (7151944)
775A19 (7821849), 74A0F7 (7643383)
799242 (7967298), 725DA3 (7495075)
795CEB (7953643), 743F7F (7618431)
79D071 (7983217), 7D3E87 (8208007)
core temperature: 2561
temperature readings:
6F7DD9 (7306713), 7239A5 (7485861)
6C78DF (7108831), 6DF342 (7205698)
6E2506 (7218438), 6D183D (7149629)
77523B (7819835), 74988F (7641231)
7988C0 (7964864), 725479 (7492729)
7953A2 (7951266), 7435D8 (7615960)
79C81C (7981084), 7D3593 (8205715)
core temperature: 2569
temperature readings:
6F7666 (7304806), 723271 (7484017)
6C729C (7107228), 6D

Note: EDK/XPS/PR_Project_XADC/ring osc calibration runs/all_run_2.txt
core temperature: 2487
temperature readings:
6F9325 (7312165), 724DBB (7491003)
6C8DE4 (7114212), 6E03DC (7209948)
6E3B41 (7224129), 6D2ADF (7154399)
775BB7 (7822263), 74A65F (7644767)
799D42 (7970114), 726CAD (7498925)
796B0F (7957263), 744D78 (7622008)
79D7CF (7985103), 7D47AA (8210346)
core temperature: 2495
temperature readings:
6F93FE (7312382), 724E97 (7491223)
6C8F7F (7114623), 6E059B (7210395)
6E3C3E (7224382), 6D2C1F (7154719)
775D0F (7822607), 74A7E4 (7645156)
799E08 (7970312), 726D32 (7499058)
796BFC (7957500), 744E29 (7622185)
79D9B4 (7985588), 7D4979 (8210809)
core temperature: 2504
temperature readings:
6F96D9 (7313113), 7251AF (7492015)
6C9278 (7115384), 6E08A5 (7211173)
6E3E5B (7224923), 6D2E88 (7155336)
776199 (7823769), 74AAFE (7645950)
79A11A (7971098), 726F35 (7499573)
796E38 (7958072), 7450A1 (7622817)
79DBF0 (7986160), 7D4C36 (8211510)
core temperature: 2512
temperature readings:
6F909C (7311516), 724B97 (7490455)
6C8C81 (7113857), 6E0377 (7209847)
6E3897 (7223447), 6D28F0 (7153904)
775D37 (7822647), 74A63B (7644731)
799B8F (7969679), 726904 (7497988)
796839 (7956537), 744A5F (7621215)
79D7B1 (7985073), 7D475E (8210270)
core temperature: 2520
temperature readings:
6F921D (7311901), 724D72 (7490930)
6C8E41 (7114305), 6E05D5 (7210453)
6E39F6 (7223798), 6D2AC8 (7154376)
7760ED (7823597), 74A959 (7645529)
799CBA (7969978), 7269B0 (7498160)
796A7D (7957117), 744C06 (7621638)
79D948 (7985480), 7D4958 (8210776)
core temperature: 2528
temperature readings:
6F8D53 (7310675), 72487D (7489661)
6C890A (7112970), 6E011F (7209247)
6E3508 (7222536), 6D25F6 (7153142)
775C74 (7822452), 74A423 (7644195)
79976A (7968618), 726487 (7496839)
79646A (7955562), 74469B (7620251)
79D446 (7984198), 7D4374 (8209268)
core temperature: 2536
temperature readings:
6F8F10 (7311120), 724ACB (7490251)
6C8B05 (7113477), 6E033E (7209790)
6E365F (7222879), 6D27BF (7153599)
775FC7 (7823303), 74A74D (7645005)
799A22 (7969314), 726602 (7497218)
7965FE (7955966), 7447D8 (7620568)
79D677 (7984759), 7D465C (8210012)
core temperature: 2544
temperature readings:
6F8AE5 (7310053), 724656 (7489110)
6C870A (7112458), 6DFF44 (7208772)
6E3255 (7221845), 6D2372 (7152498)
775C69 (7822441), 74A2F9 (7643897)
799563 (7968099), 7260BE (7495870)
7961D9 (7954905), 7442DB (7619291)
79D2F6 (7983862), 7D424F (8208975)
core temperature: 2552
temperature readings:
6F8037 (7307319), 723B9F (7486367)
6C7C71 (7109745), 6DF5DC (7206364)
6E280E (7219214), 6D1A28 (7150120)
775362 (7820130), 749990 (7641488)
798AAE (7965358), 725689 (7493257)
79575C (7952220), 7438C6 (7616710)
79C967 (7981415), 7D37E3 (8206307)
core temperature: 2560
temperature readings:
6F7BBF (7306175), 7236D9 (7485145)
6C784F (7108687), 6DF1F1 (7205361)
6E23CE (7218126), 6D1632 (7149106)
7750F2 (7819506), 749652 (7640658)
798660 (7964256), 725187 (7491975)
7952B3 (7951027), 74343F (7615551)
79C4AB (7980203), 7D32BD (8204989)
core temperature: 2568
temperature readings:
6F7620 (7304736), 72315E (7483742)
6C734A (7107402), 6D

Note: EDK/XPS/PR_Project_XADC/ring osc calibration runs/run_1.txt
32.73,7854486
33.71,7854576
34.70,7853074
35.68,7850509
36.67,7850766
37.65,7851163
38.64,7849352
39.62,7848744
40.60,7846716
41.59,7845372
42.57,7844692
43.56,7843059
44.54,7840464

Note: EDK/XPS/PR_Project_XADC/ring osc calibration runs/run_2.txt
34.57,7847342
35.56,7847364
36.54,7846992
37.53,7845641
38.51,7845875
39.50,7844933
40.48,7843886
41.47,7843180
42.45,7841712
43.43,7841059
44.42,7839815
45.40,7839453

Note: EDK/XPS/PR_Project_XADC/ring osc calibration runs/run_3.txt
35.07,8105900
36.05,8106476
37.04,8106544
38.02,8107666
39.00,8105624
39.99,8105838
40.97,8104007
41.96,8104514
42.94,8101951
43.93,8100241
44.91,8098812
45.89,8098860

Note: EDK/XPS/PR_Project_XADC/ring osc calibration runs/run_4.txt
33.47,7835080
34.45,7829330
35.44,7846425
36.42,7843405
37.40,7839035
38.39,7835035
39.37,7832986
40.36,7830511
41.34,7827758
42.33,7826136
43.31,7822418
44.30,7821230
45.28,7818876
46.26,7815974

Note: EDK/XPS/PR_Project_XADC/ring osc calibration runs/run_5.txt
32.11,77911A
33.10,4ED9
34.08,777C61
35.07,77B77A
36.05,77AED6
37.16,77A0B8
38.14,7790A0
39.13,778C55
40.11,777E59
41.10,777544
42.08,776B1A
43.06,7766D0
44.05,775DFB
45.03,775107
46.02,7750A8
47.00,77467C

Note: EDK/XPS/PR_Project_XADC/ring osc calibration runs/run_6.txt
34.33,7784CA
35.44,4ED6
36.42,7781D1
37.40,7783B9
38.39,777CB5
39.37,777611
40.36,7771FC
41.34,776D0B
42.33,7769B3
43.31,775E23
44.30,77562A
45.28,775053
46.26,774603
47.25,773B37
48.23,773910

File: all active.txt
partition number:
1 (1), 7 (7)
2 (2), 8 (8)
3 (3), 9 (9)
0 (0), A (10)
4 (4), B (11)
5 (5), C (12)
6 (6), D (13)
temperature readings:
0 (0), 0 (0)
0 (0), 0 (0)
0 (0), 0 (0)
0 (0), 0 (0)
0 (0), 0 (0)
0 (0), 0 (0)
0 (0), 0 (0)
placement results:
1 (1), 1 (1)
1 (1), 1 (1)
1 (1), 1 (1)
1 (1), 1 (1)
1 (1), 1 (1)
1 (1), 1 (1)
1 (1), 1 (1)
usage results:
0 (0), 0 (0)
0 (0), 0 (0)
0 (0), 0 (0)
0 (0), 0 (0)
0 (0), 0 (0)
0 (0), 0 (0)
0 (0), 0 (0)
oscillating sweeping calibration...
starting at current temperature: 0x9D9
starting cycle:

core temperature: 2521
partition number:
1 (1), 7 (7)
2 (2), 8 (8)
3 (3), 9 (9)
0 (0), A (10)
4 (4), B (11)
5 (5), C (12)
6 (6), D (13)
temperature readings:
6F747B (7304315), 722EB2 (7483058)
6C721C (7107100), 6DE87E (7202942)
6E1FCA (7217098), 6D10EF (7147759)
7742F1 (7815921), 748A99 (7637657)
797F90 (7962512), 724DB2 (7490994)
794BCE (7949262), 742EAC (7614124)
79BBEE (7977966), 7D2BA1 (8203169)
placement results:
1 (1), 1 (1)
1 (1), 1 (1)
1 (1), 1 (1)
1 (1), 1 (1)
1 (1), 1 (1)
1 (1), 1 (1)
1 (1), 1 (1)
usage results:
0 (0), 0 (0)
0 (0), 0 (0)
0 (0), 0 (0)
0 (0), 0 (0)
0 (0), 0 (0)
0 (0), 0 (0)
0 (0), 0 (0)
core temperature: 2529
partition number:
1 (1), 7 (7)
2 (2), 8 (8)
3 (3), 9 (9)
0 (0), A (10)
4 (4), B (11)
5 (5), C (12)
6 (6), D (13)
temperature readings:
6F7664 (7304804), 7230A7 (7483559)
6C7422 (7107618), 6DEB61 (7203681)
6E20E5 (7217381), 6D122F (7148079)
774612 (7816722), 748D6E (7638382)
7981C6 (7963078), 724F24 (7491364)
794D95 (7949717), 742FDB (7614427)
79BD53 (7978323), 7D2CDD (8203485)
placement results:
1 (1), 1 (1)
1 (1), 1 (1)
1 (1), 1 (1)
1 (1), 1 (1)
1 (1), 1 (1)
1 (1), 1 (1)
1 (1), 1 (1)
usage results:
0 (0), 0 (0)
0 (0), 0 (0)
0 (0), 0 (0)
0 (0), 0 (0)
0 (0), 0 (0)
0 (0), 0 (0)
0 (0), 0 (0)
core temperature: 2537
partition number:
1 (1), 7 (7)
2 (2), 8 (8)
3 (3), 9 (9)
0 (0), A (10)
4 (4), B (11)
5 (5), C (12)
6 (6), D (13)
temperature readings:
6F73A0 (7304096), 722D40 (7482688)
6C710C (7106828), 6DE85E (7202910)
6E1D6F (7216495), 6D0EC5 (7147205)
774446 (7816262), 748A3D (7637565)
797F3C (7962428), 724BDD (7490525)
794A06 (7948806), 742BF8 (7613432)
79BACD (7977677), 7D2969 (8202601)
placement results:
1 (1), 1 (1)
1 (1), 1 (1)
1 (1), 1 (1)
1 (1), 1 (1)
1 (1), 1 (1)
1 (1), 1 (1)
1 (1), 1 (1)
usage results:
0 (0), 0 (0)
0 (0), 0 (0)
0 (0), 0 (0)
0 (0), 0 (0)
0 (0), 0 (0)
0 (0), 0 (0)
0 (0), 0 (0)
core temperature: 2545
partition number:
1 (1), 7 (7)
2 (2), 8 (8)
3 (3), 9 (9)
0 (0), A (10)
4 (4), B (11)
5 (5), C (12)
6 (6), D (13)
temperature readings:
6F6E68 (7302760), 7228C6 (7481542)
6C6C96 (7105686), 6DE426 (7201830)
6E18CD (7215309), 6D0B1F (7146271)
774108 (7815432), 748713 (7636755)
7979BF (7961023), 7246D7 (7489239)
7944F0 (7947504), 7426FC (7612156)
79B69D (7976605), 7D2552 (8201554)
placement results:
1 (1), 1 (1)
1 (1), 1 (1)
1 (1), 1 (1)
1 (1), 1 (1)
1 (1), 1 (1)
1 (1), 1 (1)
1 (1), 1 (1)
usage results:
0 (0), 0 (0)
0 (0), 0 (0)
0 (0), 0 (0)
0 (0), 0 (0)
0 (0), 0 (0)
0 (0), 0 (0)
0 (0), 0 (0)
core temperature: 2553
partition number:
1 (1), 7 (7)
2 (2), 8 (8)
3 (3), 9 (9)
0 (0), A (10)
4 (4), B (11)
5 (5), C (12)
6 (6), D (13)
temperature readings:
6F733A (7303994), 722DAB (7482795)
6C6FF6 (7106550), 6DE892 (7202962)
6E1DF0 (7216624), 6D0F7D (7147389)
774659 (7816793), 748B9A (7637914)
797FA7 (7962535), 724BC7 (7490503)
7948F2 (7948530), 742ACE (7613134)
79BB59 (7977817), 7D2A16 (8202774)
placement results:
1 (1), 1 (1)
1 (1), 1 (1)
1 (1), 1 (1)
1 (1), 1 (1)
1 (1), 1 (1)
1 (1), 1 (1)
1 (1), 1 (1)
usage results:
0 (0), 0 (0)
0 (0), 0 (0)
0 (0), 0 (0)
0 (0), 0 (0)
0 (0), 0 (0)
0 (0), 0 (0)
0 (0), 0 (0)
core temperature: 2561
partition number:
1 (1), 7 (7)
2 (2), 8 (8)
3 (3), 9 (9)
0 (0), A (10)
4 (4), B (11)
5 (5), C (12)
6 (6), D (13)
temperature readings:
6F703D (7303229), 722AA6 (7482022)
6C6D78 (7105912), 6DE5AC (7202220)
6E19D8 (7215576), 6D0BC9 (7146441)
774517 (7816471), 74890E (7637262)
797B87 (7961479), 7246D2 (7489234)
7945BD (7947709), 742778 (7612280)
79B7E5 (7976933), 7D2665 (8201829)
placement results:
1 (1), 1 (1)
1 (1), 1 (1)
1 (1), 1 (1)
1 (1), 1 (1)
1 (1), 1 (1)
1 (1), 1 (1)
1 (1), 1 (1)
usage results:
0 (0), 0 (0)
0 (0), 0 (0)
0 (0), 0 (0)
0 (0), 0 (0)
0 (0), 0 (0)
0 (0), 0 (0)
0 (0), 0 (0)
core temperature: 2569
partition number:
1 (1), 7 (7)
2 (2), 8 (8)
3 (3), 9 (9)
0 (0), A (10)
4 (4), B (11)
5 (5), C (12)
6 (6), D (13)
temperature readings:
6F69CB (7301579), 722433 (7480371)
6C67D5 (7104469), 6DE100 (7201024)
6E139A (7213978), 6D0658 (7145048)
773F78 (7815032), 748375 (7635829)
79748D (7959693), 723FE7 (7487463)
793E99 (7945881), 74207A (7610490)
79B24D (7975501), 7D203D (8200253)
placement results:
1 (1), 1 (1)
1 (1), 1 (1)
1 (1), 1 (1)
1 (1), 1 (1)
1 (1), 1 (1)
1 (1), 1 (1)
1 (1), 1 (1)
usage results:
0 (0), 0 (0)
0 (0), 0 (0)
0 (0), 0 (0)
0 (0), 0 (0)
0 (0), 0 (0)
0 (0), 0 (0)
0 (0), 0 (0)
core temperature: 2577
partition number:
1 (1), 7 (7)
2 (2), 8 (8)
3 (3), 9 (9)
0 (0), A (10)
4 (4), B (11)
5 (5), C (12)
6 (6), D (13)
temperature readings:
6F60DE (7299294), 721BDE (7478238)
6C5E48 (7102024), 6DD835 (7198773)
6E0987 (7211399), 6CFD99 (7142809)
773674 (7812724), 747AF9 (7633657)
796B7B (7957371), 7236EE (7485166)
793505 (7943429), 7416D1 (7608017)
79AA13 (7973395), 7D175A (8197978)
placement results:
1 (1), 1 (1)
1 (1), 1 (1)
1 (1), 1 (1)
1 (1), 1 (1)
1 (1), 1 (1)
1 (1), 1 (1)
1 (1), 1 (1)
usage results:
0 (0), 0 (0)
0 (0), 0 (0)
0 (0), 0 (0)
0 (0), 0 (0)
0 (0), 0 (0)
0 (0), 0 (0)
0 (0), 0 (0)
core temperature: 2585
partition number:
1 (1), 7 (7)
2 (2), 8 (8)
3 (3), 9 (9)
0 (0), A (10)
4 (4), B (11)
5 (5), C (12)
6 (6), D (13)
temperature readings:
6F5998 (7297432), 721415 (7476245)
6C577A (7100282), 6DD225 (7197221)
6E0284 (7209604), 6CF700 (7141120)
7731BD (7811517), 74752C (7632172)
7963C7 (7955399), 722F5E (7483230)
792EBD (7941821), 741010 (7606288)
79A32B (7971627), 7D10FE (8196350)
placement results:
1 (1), 1 (1)
1 (1), 1 (1)
1 (1), 1 (1)
1 (1), 1 (1)
1 (1), 1 (1)
1 (1), 1 (1)
1 (1), 1 (1)
usage results:
0 (0), 0 (0)
0 (0), 0 (0)
0 (0), 0 (0)
0 (0), 0 (0)
0 (0), 0 (0)
0 (0), 0 (0)
0 (0), 0 (0)
core temperature: 2593
partition number:
1 (1), 7 (7)
2 (2), 8 (8)
3 (3), 9 (9)
0 (0), A (10)
4 (4), B (11)
5 (5), C (12)
6 (6), D (13)
temperature readings:
6F53FA (7295994), 720E7C (7474812)
6C521E (7098910), 6DCC98 (7195800)
6DFD82 (7208322), 6CF1CE (7139790)
772CAB (7810219), 746F4F (7630671)
795D72 (7953778), 7228B0 (7481520)
79288A (7940234), 740A05 (7604741)
799D0A (7970058), 7D0AAB (8194731)
placement results:
1 (1), 1 (1)
1 (1), 1 (1)
1 (1), 1 (1)
1 (1), 1 (1)
1 (1), 1 (1)
1 (1), 1 (1)
1 (1), 1 (1)
usage results:
0 (0), 0 (0)
0 (0), 0 (0)
0 (0), 0 (0)
0 (0), 0 (0)
0 (0), 0 (0)
0 (0), 0 (0)
0 (0), 0 (0)
starting cycle:

core temperature: 2525
partition number:
1 (1), 7 (7)
2 (2), 8 (8)
3 (3), 9 (9)
0 (0), A (10)
4 (4), B (11)
5 (5), C (12)
6 (6), D (13)
temperature readings:
6F5E3B (7298619), 7217BB (7477179)
6C5C65 (7101541), 6DD364 (7197540)
6E090C (7211276), 6CFA52 (7141970)
772B8B (7809931), 747422 (7631906)
79671D (7956253), 72370D (7485197)
793398 (7943064), 741749 (7608137)
79A40E (7971854), 7D133D (8196925)
placement results:
1 (1), 1 (1)
1 (1), 1 (1)
1 (1), 1 (1)
1 (1), 1 (1)
1 (1), 1 (1)
1 (1), 1 (1)
1 (1), 1 (1)
usage results:
0 (0), 0 (0)
0 (0), 0 (0)
0 (0), 0 (0)
0 (0), 0 (0)
0 (0), 0 (0)
0 (0), 0 (0)
0 (0), 0 (0)
core temperature: 2601
partition number:
1 (1), 7 (7)
2 (2), 8 (8)
3 (3), 9 (9)
0 (0), A (10)
4 (4), B (11)
5 (5), C (12)
6 (6), D (13)
temperature readings:
6F51A1 (7295393), 720CEE (7474414)
6C5017 (7098391), 6DCB4C (7195468)
6DFACD (7207629), 6CEF29 (7139113)
772B77 (7809911), 746E95 (7630485)
795CD4 (7953620), 72278E (7481230)
7925CB (7939531), 740775 (7604085)
799C30 (7969840), 7D0900 (8194304)
placement results:
1 (1), 1 (1)
1 (1), 1 (1)
1 (1), 1 (1)
1 (1), 1 (1)
1 (1), 1 (1)
1 (1), 1 (1)
1 (1), 1 (1)
usage results:
0 (0), 0 (0)
0 (0), 0 (0)
0 (0), 0 (0)
0 (0), 0 (0)
0 (0), 0 (0)
0 (0), 0 (0)
0 (0), 0 (0)

File: oscillator_hotspot 2.txt
sweeping calibration...
starting at current temperature: 0x9B6
core temperature: 2486
partition number:
1 (1), 7 (7)
2 (2), 8 (8)
3 (3), 9 (9)
0 (0), A (10)
4 (4), B (11)
5 (5), C (12)
6 (6), D (13)
temperature readings:
6FB273 (7320179), 726D75 (7499125)
6CABD4 (7121876), 6E228D (7217805)
6E5A32 (7232050), 6D490E (7162126)
7779BA (7829946), 74C367 (7652199)
79BA92 (7977618), 72875E (7505758)
7985C9 (7964105), 7467D2 (7628754)
79F481 (7992449), 7D65D5 (8218069)
placement results:
0 (0), 1 (1)
0 (0), 0 (0)
0 (0), 0 (0)
0 (0), 0 (0)
0 (0), 0 (0)
0 (0), 0 (0)
0 (0), 1 (1)
usage results:
0 (0), 0 (0)
0 (0), 0 (0)
0 (0), 0 (0)
0 (0), 0 (0)
0 (0), 0 (0)
0 (0), 0 (0)
0 (0), 0 (0)
core temperature: 2495
partition number:
1 (1), 7 (7)
2 (2), 8 (8)
3 (3), 9 (9)
0 (0), A (10)
4 (4), B (11)
5 (5), C (12)
6 (6), D (13)
temperature readings:
6FA7BF (7317439), 72633E (7496510)
6CA23E (7119422), 6E1879 (7215225)
6E4F40 (7229248), 6D3EC8 (7159496)
776F08 (7827208), 74B97C (7649660)
79AFFF (7974911), 727CB2 (7503026)
797B4B (7961419), 745DB8 (7626168)
79E8E0 (7989472), 7D5B33 (8215347)
placement results:
0 (0), 1 (1)
0 (0), 0 (0)
0 (0), 0 (0)
0 (0), 0 (0)
0 (0), 0 (0)
0 (0), 0 (0)
0 (0), 1 (1)
usage results:
0 (0), 0 (0)
0 (0), 0 (0)
0 (0), 0 (0)
0 (0), 0 (0)
0 (0), 0 (0)
0 (0), 0 (0)
0 (0), 0 (0)
core temperature: 2503
partition number:
1 (1), 7 (7)
2 (2), 8 (8)
3 (3), 9 (9)
0 (0), A (10)
4 (4), B (11)
5 (5), C (12)
6 (6), D (13)
temperature readings:
6FE6EE (7333614), 72A548 (7513416)
6CDFDE (7135198), 6E582F (7231535)
6E8D60 (7245152), 6D7D3D (7175485)
77B719 (7845657), 74FE23 (7667235)
79F568 (7992680), 72BC97 (7519383)
79BF7D (7978877), 749E47 (7642695)
7A3038 (8007736), 7DA46E (8234094)
placement results:
0 (0), 1 (1)
0 (0), 0 (0)
0 (0), 0 (0)
0 (0), 0 (0)
0 (0), 0 (0)
0 (0), 0 (0)
0 (0), 1 (1)
usage results:
0 (0), 0 (0)
0 (0), 0 (0)
0 (0), 0 (0)
0 (0), 0 (0)
0 (0), 0 (0)
0 (0), 0 (0)
0 (0), 0 (0)
core temperature: 2511
partition number:
1 (1), 7 (7)
2 (2), 8 (8)
3 (3), 9 (9)
0 (0), A (10)
4 (4), B (11)
5 (5), C (12)
6 (6), D (13)
temperature readings:
6FDB2B (7330603), 72990C (7510284)
6CD473 (7132275), 6E4CF3 (7228659)
6E8287 (7242375), 6D723C (7172668)
77AB9A (7842714), 74F239 (7664185)
79E96E (7989614), 72B106 (7516422)
79B358 (7975768), 749242 (7639618)
7A24C2 (8004802), 7D9836 (8230966)
placement results:
0 (0), 1 (1)
0 (0), 0 (0)
0 (0), 0 (0)
0 (0), 0 (0)
0 (0), 0 (0)
0 (0), 0 (0)
0 (0), 1 (1)
usage results:
0 (0), 0 (0)
0 (0), 0 (0)
0 (0), 0 (0)
0 (0), 0 (0)
0 (0), 0 (0)
0 (0), 0 (0)
0 (0), 0 (0)
core temperature: 2519
partition number:
1 (1), 7 (7)
2 (2), 8 (8)
3 (3), 9 (9)
0 (0), A (10)
4 (4), B (11)
5 (5), C (12)
6 (6), D (13)
temperature readings:
6FC7C0 (7325632), 7284D3 (7505107)
6CC1DB (7127515), 6E3AAB (7223979)
6E6EE6 (7237350), 6D5FCC (7167948)
779965 (7838053), 74DFC1 (7659457)
79D65A (7984730), 729E66 (7511654)
799FDB (7970779), 747F30 (7634736)
7A1107 (7999751), 7D840B (8225803)
placement results:
0 (0), 1 (1)
0 (0), 0 (0)
0 (0), 0 (0)
0 (0), 0 (0)
0 (0), 0 (0)
0 (0), 0 (0)
0 (0), 1 (1)
usage results:
0 (0), 0 (0)
0 (0), 0 (0)
0 (0), 0 (0)
0 (0), 0 (0)
0 (0), 0 (0)
0 (0), 0 (0)
0 (0), 0 (0)
core temperature: 2527
partition number:
1 (1), 7 (7)
2 (2), 8 (8)
3 (3), 9 (9)
0 (0), A (10)
4 (4), B (11)
5 (5), C (12)
6 (6), D (13)
temperature readings:
6FC375 (7324533), 728122 (7504162)
6CBDBB (7126459), 6E36E5 (7223013)
6E6A33 (7236147), 6D5B4E (7166798)
779537 (7836983), 74DB96 (7658390)
79D04F (7983183), 729862 (7510114)
799A0C (7969292), 7479A2 (7633314)
7A0CBF (7998655), 7D7EE9 (8224489)
placement results:
0 (0), 1 (1)
0 (0), 0 (0)
0 (0), 0 (0)
0 (0), 0 (0)
0 (0), 0 (0)
0 (0), 0 (0)
0 (0), 1 (1)
usage results:
0 (0), 0 (0)
0 (0), 0 (0)
0 (0), 0 (0)
0 (0), 0 (0)
0 (0), 0 (0)
0 (0), 0 (0)
0 (0), 0 (0)
core temperature: 2535
partition number:
1 (1), 7 (7)
2 (2), 8 (8)
3 (3), 9 (9)
0 (0), A (10)
4 (4), B (11)
5 (5), C (12)
6 (6), D (13)
temperature readings:
6FADBD (7318973), 726B8A (7498634)
6CA8D6 (7121110), 6E2237 (7217719)
6E55B5 (7230901), 6D476E (7161710)
778162 (7831906), 74C7BA (7653306)
79B98D (7977357), 72827E (7504510)
79843C (7963708), 7464A9 (7627945)
79F7A8 (7993256), 7D6901 (8218881)
placement results:
0 (0), 1 (1)
0 (0), 0 (0)
0 (0), 0 (0)
0 (0), 0 (0)
0 (0), 0 (0)
0 (0), 0 (0)
0 (0), 1 (1)
usage results:
0 (0), 0 (0)
0 (0), 0 (0)
0 (0), 0 (0)
0 (0), 0 (0)
0 (0), 0 (0)
0 (0), 0 (0)
0 (0), 0 (0)
core temperature: 2543
partition number:
1 (1), 7 (7)
2 (2), 8 (8)
3 (3), 9 (9)
0 (0), A (10)
4 (4), B (11)
5 (5), C (12)
6 (6), D (13)
temperature readings:
6FA13C (7315772), 725E58 (7495256)
6C9D43 (7118147), 6E16EE (7214830)
6E48E6 (7227622), 6D3B36 (7158582)
7774C9 (7828681), 74BB15 (7650069)
79AC6B (7973995), 727626 (7501350)
7977C0 (7960512), 74580C (7624716)
79EB06 (7990022), 7D5BD0 (8215504)
placement results:
0 (0), 1 (1)
0 (0), 0 (0)
0 (0), 0 (0)
0 (0), 0 (0)
0 (0), 0 (0)
0 (0), 0 (0)
0 (0), 1 (1)
usage results:
0 (0), 0 (0)
0 (0), 0 (0)
0 (0), 0 (0)
0 (0), 0 (0)
0 (0), 0 (0)
0 (0), 0 (0)
0 (0), 0 (0)
core temperature: 2551
partition number:
1 (1), 7 (7)
2 (2), 8 (8)
3 (3), 9 (9)
0 (0), A (10)
4 (4), B (11)
5 (5), C (12)
6 (6), D (13)
temperature readings:
6F9B71 (7314289), 725888 (7493768)
6C9721 (7116577), 6E1132 (7213362)
6E4448 (7226440), 6D3623 (7157283)
776FE1 (7827425), 74B54B (7648587)
79A6F3 (7972595), 727048 (7499848)
7971B5 (7958965), 745221 (7623201)
79E4FB (7988475), 7D560A (8214026)
placement results:
0 (0), 1 (1)
0 (0), 0 (0)
0 (0), 0 (0)
0 (0), 0 (0)
0 (0), 0 (0)
0 (0), 0 (0)
0 (0), 1 (1)
usage results:
0 (0), 0 (0)
0 (0), 0 (0)
0 (0), 0 (0)
0 (0), 0 (0)
0 (0), 0 (0)
0 (0), 0 (0)
0 (0), 0 (0)
core temperature: 2559
partition number:
1 (1), 7 (7)
2 (2), 8 (8)
3 (3), 9 (9)
0 (0), A (10)
4 (4), B (11)
5 (5), C (12)
6 (6), D (13)
temperature readings:
6F9163 (7311715), 724E85 (7491205)
6C8E15 (7114261), 6E0808 (7211016)
6E3946 (7223622), 6D2B7C (7154556)
776628 (7824936), 74AB84 (7646084)
799BB3 (7969715), 72657F (7497087)
796743 (7956291), 74471F (7620383)
79DB6D (7986029), 7D4BC5 (8211397)
placement results:
0 (0), 1 (1)
0 (0), 0 (0)
0 (0), 0 (0)
0 (0), 0 (0)
0 (0), 0 (0)
0 (0), 0 (0)
0 (0), 1 (1)
usage results:
0 (0), 0 (0)
0 (0), 0 (0)
0 (0), 0 (0)
0 (0), 0 (0)
0 (0), 0 (0)
0 (0), 0 (0)
0 (0), 0 (0)
core temperature: 2567
partition number:
1 (1), 7 (7)
2 (2), 8 (8)
3 (3), 9 (9)
0 (0), A (10)
4 (4), B (11)
5 (5), C (12)
6 (6), D (13)
temperature readings:
6F85F0 (7308784), 724378 (7488376)
6C82AB (7111339), 6DFD6A (7208298)
6E2D6C (7220588), 6D2036 (7151670)
775C13 (7822355), 74A0AC (7643308)
799088 (7966856), 725AD2 (7494354)
795ACA (7953098), 743B9C (7617436)
79CFD1 (7983057), 7D3FE5 (8208357)
placement results:
0 (0), 1 (1)
0 (0), 0 (0)
0 (0), 0 (0)
0 (0), 0 (0)
0 (0), 0 (0)
0 (0), 0 (0)
0 (0), 1 (1)
usage results:
0 (0), 0 (0)
0 (0), 0 (0)
0 (0), 0 (0)
0 (0), 0 (0)
0 (0), 0 (0)
0 (0), 0 (0)
0 (0), 0 (0)
core temperature: 2575
partition number:
1 (1), 7 (7)
2 (2), 8 (8)
3 (3), 9 (9)
0 (0), A (10)
4 (4), B (11)
5 (5), C (12)
6 (6), D (13)
temperature readings:
6F75F8 (7304696), 72334B (7484235)
6C728E (7107214), 6DED21 (7204129)
6E1CF2 (7216370), 6D10C1 (7147713)
774CCE (7818446), 74914A (7639370)
797EFE (7962366), 7249A5 (7489957)
794A40 (7948864), 742B65 (7613285)
79C056 (7979094), 7D2FB7 (8204215)
placement results:
0 (0), 1 (1)
0 (0), 0 (0)
0 (0), 0 (0)
0 (0), 0 (0)
0 (0), 0 (0)
0 (0), 0 (0)
0 (0), 1 (1)
usage results:
0 (0), 0 (0)
0 (0), 0 (0)
0 (0), 0 (0)
0 (0), 0 (0)
0 (0), 0 (0)
0 (0), 0 (0)
0 (0), 0 (0)
core temperature: 2583
partition number:
1 (1), 7 (7)
2 (2), 8 (8)
3 (3), 9 (9)
0 (0), A (10)
4 (4), B (11)
5 (5), C (12)
6 (6), D (13)
temperature readings:
6F726A (7303786), 722F55 (7483221)
6C6EE5 (7106277), 6DE9D1 (7203281)
6E19C4 (7215556), 6D0D71 (7146865)
7749E1 (7817697), 748E65 (7638629)
797C66 (7961702), 724653 (7489107)
7945F4 (7947764), 7426DC (7612124)
79BCC3 (7978179), 7D2BFC (8203260)
placement results:
0 (0), 1 (1)
0 (0), 0 (0)
0 (0), 0 (0)
0 (0), 0 (0)
0 (0), 0 (0)
0 (0), 0 (0)
0 (0), 1 (1)
usage results:
0 (0), 0 (0)
0 (0), 0 (0)
0 (0), 0 (0)
0 (0), 0 (0)
0 (0), 0 (0)
0 (0), 0 (0)
0 (0), 0 (0)
core temperature: 2591
partition number:
1 (1), 7 (7)
2 (2), 8 (8)
3 (3), 9 (9)
0 (0), A (10)
4 (4), B (11)
5 (5), C (12)
6 (6), D (13)
temperature readings:
6F6942 (7301442), 7226E6 (7481062)
6C6656 (7104086), 6DE173 (7201139)
6E1156 (7213398), 6D0510 (7144720)
774178 (7815544), 7485BB (7636411)
79726D (7959149), 723C91 (7486609)
793C60 (7945312), 741DA9 (7609769)
79B260 (7975520), 7D21A6 (8200614)
placement results:
0 (0), 1 (1)
0 (0), 0 (0)
0 (0), 0 (0)
0 (0), 0 (0)
0 (0), 0 (0)
0 (0), 0 (0)
0 (0), 1 (1)
usage results:
0 (0), 0 (0)
0 (0), 0 (0)
0 (0), 0 (0)
0 (0), 0 (0)
0 (0), 0 (0)
0 (0), 0 (0)
0 (0), 0 (0)
core temperature: 2599
partition number:
1 (1), 7 (7)
2 (2), 8 (8)
3 (3), 9 (9)
0 (0), A (10)
4 (4), B (11)
5 (5), C (12)
6 (6), D (13)
temperature readings:
6F5D0A (7298314), 721BA7 (7478183)
6C5B8D (7101325), 6DD704 (7198468)
6E061D (7210525), 6CFAAB (7142059)
7736A1 (7812769), 747A38 (7633464)
796593 (7955859), 72300C (7483404)
79305B (7942235), 74117C (7606652)
79A7BB (7972795), 7D170E (8197902)
placement results:
0 (0), 1 (1)
0 (0), 0 (0)
0 (0), 0 (0)
0 (0), 0 (0)
0 (0), 0 (0)
0 (0), 0 (0)
0 (0), 1 (1)
usage results:
0 (0), 0 (0)
0 (0), 0 (0)
0 (0), 0 (0)
0 (0), 0 (0)
0 (0), 0 (0)
0 (0), 0 (0)
0 (0), 0 (0)
core temperature: 2607
partition number:
1 (1), 7 (7)
2 (2), 8 (8)
3 (3), 9 (9)
0 (0), A (10)
4 (4), B (11)
5 (5), C (12)
6 (6), D (13)
temperature readings:
6F5372 (7295858), 7211DB (7475675)
6C516D (7098733), 6DCD40 (7195968)
6DFC94 (7208084), 6CF14D (7139661)
772D21 (7810337), 747071 (7630961)
795C17 (7953431), 72268F (7480975)
7925EA (7939562), 740742 (7604034)
799DB5 (7970229), 7D0C1C (8195100)
placement results:
0 (0), 1 (1)
0 (0), 0 (0)
0 (0), 0 (0)
0 (0), 0 (0)
0 (0), 0 (0)
0 (0), 0 (0)
0 (0), 1 (1)
usage results:
0 (0), 0 (0)
0 (0), 0 (0)
0 (0), 0 (0)
0 (0), 0 (0)
0 (0), 0 (0)
0 (0), 0 (0)
0 (0), 0 (0)